trial_id,task,condition,repetition,input_sequence_id,total_duration,analyzed_start,analyzed_end,analyzed_duration,mean_fps,dropped_frame_rate,end_to_end_latency,mean_end_effector_error,max_end_effector_error,convergence_ratio,mean_jitter,max_jitter,penetration_frame_ratio,mean_penetration_depth,max_penetration_depth,blocking_success_rate,mean_response_latency,mean_recovery_time,mean_contact_target_deviation,external_contact_count,internal_collision_count,visual_instability_event_count,audio_candidate_count,cooldown_violation_count,notes,mean_raw_penetration_depth,max_raw_penetration_depth,contact_attempt_count,pass_through_count,pass_through_ratio,raw_overlap_frame_ratio,visual_instability_frame_ratio,visual_instability_duration_mean,visual_instability_duration_max,mean_instability_jitter,mean_release_duration,recovery_success_rate,frame_rows_from_frame,external_contact_count_from_frame,contact_attempt_count_from_frame,penetration_frame_count_from_frame,penetration_frame_ratio_from_frame,audio_candidate_count_from_frame,pass_through_frame_count_from_frame,visual_instability_count_from_frame,mean_penetration_depth_from_frame,max_penetration_depth_from_frame,p95_penetration_depth_from_frame,mean_overlap_from_frame,max_overlap_from_frame,p95_overlap_from_frame,visual_instability_per_1000_frame_rows_from_frame,contact_event_count_from_event,blocking_success_rate_from_event,blocking_success_event_count_from_event,pass_through_event_count_from_event,pass_through_event_rate_from_event,mean_recovery_time_from_event,max_recovery_time_from_event,valid_recovery_event_count_from_event,recovered_event_count_from_event,recovery_success_rate_from_event,max_penetration_depth_from_event,mean_event_max_penetration_depth_from_event,mean_response_latency_from_event,max_response_latency_from_event,diff__external_contact_count__vs__external_contact_count_from_frame,diff__contact_attempt_count__vs__contact_attempt_count_from_frame,diff__penetration_frame_ratio__vs__penetration_frame_ratio_from_frame,diff__audio_candidate_count__vs__audio_candidate_count_from_frame,diff__pass_through_count__vs__pass_through_frame_count_from_frame,diff__blocking_success_rate__vs__blocking_success_rate_from_event,diff__mean_response_latency__vs__mean_response_latency_from_event,diff__mean_recovery_time__vs__mean_recovery_time_from_event,diff__recovery_success_rate__vs__recovery_success_rate_from_event,diff__max_penetration_depth__vs__max_penetration_depth_from_frame
FM_01,FreeMotion,Direct,1,FreeMotion_Default,30,5,25,20,30.05,0.0,0.0,0.0,0.0,1.0,0.0091,0.7226,0.0,0.0,0.0,0.0,0.0,0.0,0.0,0,0,0,0,0,,-1.0,-1.0,0,0,0.0,0.0,0.102,0.0,0,0.052042,0.0,0.0,9000,0,0,0,0.0,0,0,918,-1.0,-1.0,-1.0,0.0,0.0,0.0,102.0,,,,,,,,,,,,,,,0,0,0.0,0,0,,,,,1.0
FM_02,FreeMotion,Direct,2,FreeMotion_Default,30,5,25,20,30.05,0.0,0.0,0.0,0.0,1.0,0.0089,0.7226,0.0,0.0,0.0,0.0,0.0,0.0,0.0,0,0,0,0,0,,-1.0,-1.0,0,0,0.0,0.0,0.0987,0.0,0,0.051879,0.0,0.0,9000,0,0,0,0.0,0,0,888,-1.0,-1.0,-1.0,0.0,0.0,0.0,98.66666666666667,,,,,,,,,,,,,,,0,0,0.0,0,0,,,,,1.0
FM_03,FreeMotion,Direct,3,FreeMotion_Default,30,5,25,20,30.05,0.0,0.0,0.0,0.0,1.0,0.0088,0.7226,0.0,0.0,0.0,0.0,0.0,0.0,0.0,0,0,0,0,0,,-1.0,-1.0,0,0,0.0,0.0,0.0983,0.0,0,0.051898,0.0,0.0,9000,0,0,0,0.0,0,0,885,-1.0,-1.0,-1.0,0.0,0.0,0.0,98.33333333333333,,,,,,,,,,,,,,,0,0,0.0,0,0,,,,,1.0
FM_04,FreeMotion,Direct,4,FreeMotion_Default,30,5,25,20,30.05,0.0,0.0,0.0,0.0,1.0,0.0089,0.7226,0.0,0.0,0.0,0.0,0.0,0.0,0.0,0,0,0,0,0,,-1.0,-1.0,0,0,0.0,0.0,0.0987,0.0,0,0.051879,0.0,0.0,9000,0,0,0,0.0,0,0,888,-1.0,-1.0,-1.0,0.0,0.0,0.0,98.66666666666667,,,,,,,,,,,,,,,0,0,0.0,0,0,,,,,1.0
FM_05,FreeMotion,Direct,5,FreeMotion_Default,30,5,25,20,30.05,0.0,0.0,0.0,0.0,1.0,0.0088,0.7226,0.0,0.0,0.0,0.0,0.0,0.0,0.0,0,0,0,0,0,,-1.0,-1.0,0,0,0.0,0.0,0.0983,0.0,0,0.051898,0.0,0.0,9000,0,0,0,0.0,0,0,885,-1.0,-1.0,-1.0,0.0,0.0,0.0,98.33333333333333,,,,,,,,,,,,,,,0,0,0.0,0,0,,,,,1.0
FM_06,FreeMotion,PlanarIK,1,FreeMotion_Default,30,5,25,20,30.05,0.0,0.0,0.0,0.0,1.0,0.0088,0.7226,1.0,0.2571,0.4611,0.0,0.0,3.5469,0.0,9000,0,0,0,0,,0.257137,0.461127,9000,9000,1.0,1.0,0.0983,0.0,0,0.051898,0.0,0.0,9000,9000,9000,9000,1.0,0,9000,885,0.25713711166666664,0.461127,0.258829,0.25713711166666664,0.461127,0.258829,98.33333333333333,10.0,0.0,0.0,9.0,0.9,5.911549999999999,8.934,6.0,6.0,0.6,1.4492,0.37561,0.0,0.0,0,0,0.0,0,0,0.0,0.0,-2.3646499999999993,-0.6,-2.6999999999999247e-05
FM_07,FreeMotion,PlanarIK,2,FreeMotion_Default,30,5,25,20,30.05,0.0,0.0,0.0,0.0,1.0,0.0088,0.7226,1.0,0.2571,0.461,0.0,0.0,3.547,0.0,9000,0,0,0,0,,0.257137,0.461033,9000,9000,1.0,1.0,0.0983,0.0,0,0.051898,0.0,0.0,9000,9000,9000,9000,1.0,0,9000,885,0.2571371183333333,0.461033,0.258829,0.2571371183333333,0.461033,0.258829,98.33333333333333,10.0,0.0,0.0,9.0,0.9,5.9117500000000005,8.9349,6.0,6.0,0.6,1.4492,0.37558,0.0,0.0,0,0,0.0,0,0,0.0,0.0,-2.3647500000000004,-0.6,-3.300000000000525e-05
FM_08,FreeMotion,PlanarIK,3,FreeMotion_Default,30,5,25,20,30.05,0.0,0.0,0.0,0.0,1.0,0.0089,0.7226,1.0,0.2572,0.461,0.0,0.0,3.8375,0.0,9000,0,0,0,0,,0.257156,0.460997,9000,9000,1.0,1.0,0.0987,0.0,0,0.051879,0.0,0.0,9000,9000,9000,9000,1.0,0,9000,888,0.257155765,0.460997,0.258829,0.257155765,0.460997,0.258829,98.66666666666667,11.0,0.0,0.0,9.0,0.8181818181818182,4.6902333333333335,8.9356,9.0,9.0,0.8181818181818182,1.4492,0.3402818181818182,0.0,0.0,0,0,0.0,0,0,0.0,0.0,-0.8527333333333336,-0.8181818181818182,3.000000000030756e-06
FM_09,FreeMotion,PlanarIK,4,FreeMotion_Default,30,5,25,20,30.04,0.0,0.0,0.0,0.0,1.0,0.0088,0.7226,1.0,0.2571,0.461,0.0,0.0,3.5444,0.0,9000,0,0,0,0,,0.257054,0.461025,9000,9000,1.0,1.0,0.0983,0.0,0,0.051898,0.0,0.0,9000,9000,9000,9000,1.0,0,9000,885,0.2570538766666666,0.461025,0.258829,0.2570538766666666,0.461025,0.258829,98.33333333333333,10.0,0.0,0.0,9.0,0.9,5.907283333333333,8.9372,6.0,6.0,0.6,1.4492,0.37320000000000003,0.0,0.0,0,0,0.0,0,0,0.0,0.0,-2.362883333333333,-0.6,-2.4999999999997247e-05
FM_10,FreeMotion,PlanarIK,5,FreeMotion_Default,30,5,25,20,30.05,0.0,0.0,0.0,0.0,1.0,0.0089,0.7226,1.0,0.2571,0.461,0.0,0.0,3.5471,0.0,9000,0,0,0,0,,0.257137,0.461008,9000,9000,1.0,1.0,0.0987,0.0,0,0.051879,0.0,0.0,9000,9000,9000,9000,1.0,0,9000,888,0.2571371966666666,0.461008,0.258829,0.2571371966666666,0.461008,0.258829,98.66666666666667,10.0,0.0,0.0,9.0,0.9,5.911766666666666,8.9344,6.0,6.0,0.6,1.4492,0.37533000000000005,0.0,0.0,0,0,0.0,0,0,0.0,0.0,-2.364666666666666,-0.6,-7.99999999995249e-06
FM_11,FreeMotion,Ours,1,FreeMotion_Default,30,5,25,20,29.95,0.0017,0.003,0.0592,1.2892,1.0,0.0768,3.5188,1.0,0.4694,0.5005,1.0,0.003,3.2153,0.0,16744,0,518,16744,16743,,0.469448,0.500525,16744,0,0.0,1.0,0.316,5.84,6,0.241347,0.0,0.0,16744,16744,16744,16744,1.0,16744,0,5291,0.4694478913043478,0.500525,0.480182,0.4694478913043478,0.500525,0.480182,315.99378881987576,11.0,1.0,11.0,0.0,0.0,5.052671428571428,8.934,7.0,7.0,0.6363636363636364,1.4492,0.4564272727272727,0.0030272727272727274,0.0333,0,0,0.0,0,0,0.0,-2.7272727272727344e-05,-1.8373714285714282,-0.6363636363636364,-2.5000000000052758e-05
FM_12,FreeMotion,Ours,2,FreeMotion_Default,30,5,25,20,30.05,0.0,0.0,0.0599,1.6875,1.0,0.0768,3.2044,1.0,0.469,0.5686,1.0,0.0,3.2033,0.0,16800,0,522,16800,16799,,0.468986,0.56863,16800,0,0.0,1.0,0.3199,5.85,6,0.23866,0.0,0.0,16800,16800,16800,16800,1.0,16800,0,5374,0.4689860616666667,0.56863,0.480182,0.4689860616666667,0.56863,0.480182,319.88095238095235,11.0,1.0,11.0,0.0,0.0,5.033785714285714,8.9339,7.0,7.0,0.6363636363636364,1.4492,0.45221818181818185,0.0,0.0,0,0,0.0,0,0,0.0,0.0,-1.830485714285714,-0.6363636363636364,-2.999999999997449e-05
FM_13,FreeMotion,Ours,3,FreeMotion_Default,30,5,25,20,30.05,0.0,0.003,0.0678,1.3095,1.0,0.078,3.4863,1.0,0.4705,0.4848,0.9091,0.003,3.2094,0.0,16800,0,540,16800,16799,,0.470461,0.484802,16800,0,0.0,1.0,0.3268,5.87,6,0.237438,0.0,0.0,16800,16800,16800,16800,1.0,16800,0,5490,0.47046090333333335,0.484802,0.480182,0.47046090333333335,0.484802,0.480182,326.7857142857143,11.0,0.9090909090909091,10.0,1.0,0.09090909090909091,5.043285714285714,8.9344,7.0,7.0,0.6363636363636364,1.4492,0.46604545454545454,0.0030272727272727274,0.0333,0,0,0.0,0,0,9.090909090958554e-06,-2.7272727272727344e-05,-1.8338857142857141,-0.6363636363636364,-2.000000000002e-06
FM_14,FreeMotion,Ours,4,FreeMotion_Default,30,5,25,20,30.05,0.0,0.0028,0.0557,1.7348,1.0,0.0758,3.2587,1.0,0.4701,0.5725,1.0,0.0028,3.4112,0.0,16800,0,518,16800,16799,,0.470126,0.572474,16800,0,0.0,1.0,0.3148,5.86,6,0.239232,0.0,0.0,16800,16800,16800,16800,1.0,16800,0,5288,0.47012580833333334,0.572474,0.480182,0.47012580833333334,0.572474,0.480182,314.76190476190476,12.0,1.0,12.0,0.0,0.0,5.116825,8.935,8.0,8.0,0.6666666666666666,1.4492,0.4074166666666667,0.002775,0.0333,0,0,0.0,0,0,0.0,2.499999999999985e-05,-1.7056250000000004,-0.6666666666666666,2.599999999997049e-05
FM_15,FreeMotion,Ours,5,FreeMotion_Default,30,5,25,20,29.95,0.0017,0.0056,0.0607,1.2818,1.0,0.0774,3.5137,1.0,0.4711,0.4955,1.0,0.0056,2.9362,0.0,16744,0,518,16744,16743,,0.471089,0.495465,16744,0,0.0,1.0,0.3171,5.87,6,0.242776,0.0,0.0,16744,16744,16744,16744,1.0,16744,0,5309,0.47108888294314377,0.495465,0.480182,0.47108888294314377,0.495465,0.480182,317.06880076445293,12.0,1.0,12.0,0.0,0.0,4.404275,8.9341,8.0,8.0,0.6666666666666666,1.4492,0.44237499999999996,0.00555,0.0333,0,0,0.0,0,0,0.0,4.99999999999997e-05,-1.4680750000000002,-0.6666666666666666,3.500000000000725e-05
DK_01,DoorKnocking,Direct,1,DoorKnocking_Default,30,5,28,23,30.04,0.0,0.0,0.0,0.0,1.0,0.01,1.2465,0.0,0.0,0.0,0.0,0.0,0.0,0.0,0,0,4,0,0,,-1.0,-1.0,0,0,0.0,0.0,0.0881,9.75,30,0.08707,0.0,0.0,10350,0,0,0,0.0,0,0,912,-1.0,-1.0,-1.0,0.0,0.0,0.0,88.11594202898551,,,,,,,,,,,,,,,0,0,0.0,0,0,,,,,1.0
DK_02,DoorKnocking,Direct,2,DoorKnocking_Default,30,5,28,23,30.04,0.0,0.0,0.0,0.0,1.0,0.01,1.2465,0.0,0.0,0.0,0.0,0.0,0.0,0.0,0,0,4,0,0,,-1.0,-1.0,0,0,0.0,0.0,0.0881,9.75,30,0.08707,0.0,0.0,10350,0,0,0,0.0,0,0,912,-1.0,-1.0,-1.0,0.0,0.0,0.0,88.11594202898551,,,,,,,,,,,,,,,0,0,0.0,0,0,,,,,1.0
DK_03,DoorKnocking,Direct,3,DoorKnocking_Default,30,5,28,23,30.04,0.0,0.0,0.0,0.0,1.0,0.01,1.2465,0.0,0.0,0.0,0.0,0.0,0.0,0.0,0,0,4,0,0,,-1.0,-1.0,0,0,0.0,0.0,0.0881,9.75,30,0.08707,0.0,0.0,10350,0,0,0,0.0,0,0,912,-1.0,-1.0,-1.0,0.0,0.0,0.0,88.11594202898551,,,,,,,,,,,,,,,0,0,0.0,0,0,,,,,1.0
DK_04,DoorKnocking,Direct,4,DoorKnocking_Default,30,5,28,23,30.04,0.0,0.0,0.0,0.0,1.0,0.01,1.2465,0.0,0.0,0.0,0.0,0.0,0.0,0.0,0,0,4,0,0,,-1.0,-1.0,0,0,0.0,0.0,0.0881,9.75,30,0.08707,0.0,0.0,10350,0,0,0,0.0,0,0,912,-1.0,-1.0,-1.0,0.0,0.0,0.0,88.11594202898551,,,,,,,,,,,,,,,0,0,0.0,0,0,,,,,1.0
DK_05,DoorKnocking,Direct,5,DoorKnocking_Default,30,5,28,23,30.04,0.0,0.0,0.0,0.0,1.0,0.01,1.2465,0.0,0.0,0.0,0.0,0.0,0.0,0.0,0,0,4,0,0,,-1.0,-1.0,0,0,0.0,0.0,0.0881,9.75,30,0.08707,0.0,0.0,10350,0,0,0,0.0,0,0,912,-1.0,-1.0,-1.0,0.0,0.0,0.0,88.11594202898551,,,,,,,,,,,,,,,0,0,0.0,0,0,,,,,1.0
DK_06,DoorKnocking,PlanarIK,1,DoorKnocking_Default,30,5,28,23,30.04,0.0,0.0,0.0,0.0,1.0,0.01,1.2465,1.0,0.2619,0.6984,0.0,0.0,2.6363,0.0,10335,0,4,0,0,,0.261879,0.698413,10335,10335,1.0,1.0,0.0882,9.75,30,0.08707,0.0,0.0,10335,10335,10335,10335,1.0,0,10335,912,0.2618793570391872,0.698413,0.258829,0.2618793570391872,0.698413,0.258829,88.24383164005806,29.0,0.0,0.0,26.0,0.896551724137931,3.0580439999999998,10.9596,25.0,25.0,0.8620689655172413,1.4492,0.5367896551724138,0.0,0.0,0,0,0.0,0,0,0.0,0.0,-0.4217439999999999,-0.8620689655172413,-1.2999999999929734e-05
DK_07,DoorKnocking,PlanarIK,2,DoorKnocking_Default,30,5,28,23,30.04,0.0,0.0,0.0,0.0,1.0,0.01,1.2465,1.0,0.2618,0.6984,0.0,0.0,2.6281,0.0,10350,0,4,0,0,,0.261782,0.698413,10350,10350,1.0,1.0,0.0881,9.75,30,0.08707,0.0,0.0,10350,10350,10350,10350,1.0,0,10350,912,0.2617820188405797,0.698413,0.258829,0.2617820188405797,0.698413,0.258829,88.11594202898551,29.0,0.0,0.0,26.0,0.896551724137931,3.048616,10.8926,25.0,25.0,0.8620689655172413,1.4492,0.5397241379310345,0.0,0.0,0,0,0.0,0,0,0.0,0.0,-0.4205160000000001,-0.8620689655172413,-1.2999999999929734e-05
DK_08,DoorKnocking,PlanarIK,3,DoorKnocking_Default,30,5,28,23,30.04,0.0,0.0,0.0,0.0,1.0,0.01,1.2465,1.0,0.2619,0.6984,0.0,0.0,2.6368,0.0,10350,0,4,0,0,,0.261876,0.698413,10350,10350,1.0,1.0,0.0881,9.75,30,0.08707,0.0,0.0,10350,10350,10350,10350,1.0,0,10350,912,0.26187608840579707,0.698413,0.258829,0.26187608840579707,0.698413,0.258829,88.11594202898551,29.0,0.0,0.0,26.0,0.896551724137931,3.058696,10.966,25.0,25.0,0.8620689655172413,1.4492,0.5401206896551723,0.0,0.0,0,0,0.0,0,0,0.0,0.0,-0.4218959999999998,-0.8620689655172413,-1.2999999999929734e-05
DK_09,DoorKnocking,PlanarIK,4,DoorKnocking_Default,30,5,28,23,30.04,0.0,0.0,0.0,0.0,1.0,0.01,1.2465,1.0,0.2619,0.6984,0.0,0.0,2.64,0.0,10350,0,4,0,0,,0.261923,0.698413,10350,10350,1.0,1.0,0.0881,9.75,30,0.08707,0.0,0.0,10350,10350,10350,10350,1.0,0,10350,912,0.26192284202898547,0.698413,0.258829,0.26192284202898547,0.698413,0.258829,88.11594202898551,29.0,0.0,0.0,26.0,0.896551724137931,3.062348,10.996,25.0,25.0,0.8620689655172413,1.4492,0.5366655172413793,0.0,0.0,0,0,0.0,0,0,0.0,0.0,-0.42234799999999995,-0.8620689655172413,-1.2999999999929734e-05
DK_10,DoorKnocking,PlanarIK,5,DoorKnocking_Default,30,5,28,23,30.04,0.0,0.0,0.0,0.0,1.0,0.01,1.2465,1.0,0.2618,0.6984,0.0,0.0,2.46,0.0,10350,0,4,0,0,,0.261829,0.698413,10350,10350,1.0,1.0,0.0881,9.75,30,0.08707,0.0,0.0,10350,10350,10350,10350,1.0,0,10350,912,0.26182860144927533,0.698413,0.258829,0.26182860144927533,0.698413,0.258829,88.11594202898551,31.0,0.0,0.0,26.0,0.8387096774193549,2.8244111111111114,10.896,27.0,27.0,0.8709677419354839,1.4492,0.5064129032258065,0.0,0.0,0,0,0.0,0,0,0.0,0.0,-0.36441111111111146,-0.8709677419354839,-1.2999999999929734e-05
DK_11,DoorKnocking,Ours,1,DoorKnocking_Default,30,5,28,23,30.04,0.0,0.0053,0.0664,6.926,1.0,0.0943,24.2563,1.0,0.4779,0.6984,0.9211,0.0053,2.0336,0.0,19320,0,550,19320,19319,,0.477915,0.698413,19320,0,0.0,1.0,0.2902,5.82,6,0.322932,0.0,0.0,19320,19320,19320,19320,1.0,19320,0,5607,0.4779154028985507,0.698413,0.480182,0.4779154028985507,0.698413,0.480182,290.2173913043478,38.0,0.9210526315789473,35.0,0.0,0.0,2.2728705882352944,10.7015,34.0,34.0,0.8947368421052632,1.5204,0.5211131578947368,0.005257894736842106,0.0333,0,0,0.0,0,0,4.7368421052684795e-05,4.210526315789366e-05,-0.23927058823529457,-0.8947368421052632,-1.2999999999929734e-05
DK_12,DoorKnocking,Ours,2,DoorKnocking_Default,30,5,28,23,30.04,0.0,0.0038,0.064,9.1759,1.0,0.097,27.5331,1.0,0.4777,0.6984,1.0,0.0038,2.2547,0.0,19320,0,530,19320,19319,,0.477735,0.698413,19320,0,0.0,1.0,0.2829,5.9,6,0.340712,0.0,0.0,19320,19320,19320,19320,1.0,19320,0,5465,0.47773546231884056,0.698413,0.480182,0.47773546231884056,0.698413,0.480182,282.86749482401655,35.0,1.0,35.0,0.0,0.0,2.5456741935483875,10.8381,31.0,31.0,0.8857142857142857,1.4562,0.5671057142857143,0.003805714285714286,0.0333,0,0,0.0,0,0,0.0,-5.714285714285977e-06,-0.2909741935483874,-0.8857142857142857,-1.2999999999929734e-05
DK_13,DoorKnocking,Ours,3,DoorKnocking_Default,30,5,28,23,30.04,0.0,0.0061,0.0714,8.4525,1.0,0.0952,24.7107,1.0,0.478,0.6984,1.0,0.0061,2.3228,0.0,19320,0,543,19320,19319,,0.47796,0.698413,19320,0,0.0,1.0,0.2891,5.86,6,0.327195,0.0,0.0,19320,19320,19320,19320,1.0,19320,0,5585,0.4779606811594203,0.698413,0.480182,0.4779606811594203,0.698413,0.480182,289.0786749482402,33.0,1.0,33.0,0.0,0.0,2.643134482758621,10.8942,29.0,29.0,0.8787878787878788,1.7334,0.6031212121212121,0.006054545454545456,0.0333,0,0,0.0,0,0,0.0,4.5454545454544706e-05,-0.320334482758621,-0.8787878787878788,-1.2999999999929734e-05
DK_14,DoorKnocking,Ours,4,DoorKnocking_Default,30,5,28,23,30.04,0.0,0.0048,0.0634,9.2017,1.0,0.0973,27.6332,1.0,0.4778,0.6984,1.0,0.0048,2.2567,0.0,19320,0,534,19320,19319,,0.477837,0.698413,19320,0,0.0,1.0,0.2847,5.92,6,0.339654,0.0,0.0,19320,19320,19320,19320,1.0,19320,0,5500,0.47783726956521744,0.698413,0.480182,0.47783726956521744,0.698413,0.480182,284.6790890269151,35.0,1.0,35.0,0.0,0.0,2.5479290322580646,10.8381,31.0,31.0,0.8857142857142857,1.5456,0.5599942857142858,0.004757142857142857,0.0333,0,0,0.0,0,0,0.0,4.2857142857142226e-05,-0.2912290322580646,-0.8857142857142857,-1.2999999999929734e-05
DK_15,DoorKnocking,Ours,5,DoorKnocking_Default,30,5,28,23,30.04,0.0,0.0056,0.0743,5.5141,1.0,0.0944,21.6757,1.0,0.478,0.6984,0.9722,0.0056,2.0871,0.0,19320,0,565,19320,19319,,0.478015,0.698413,19320,0,0.0,1.0,0.2963,5.85,6,0.316835,0.0,0.0,19320,19320,19320,19320,1.0,19320,0,5724,0.4780151811594203,0.698413,0.480182,0.4780151811594203,0.698413,0.480182,296.27329192546586,36.0,0.9722222222222222,35.0,0.0,0.0,2.347971875,10.6657,32.0,32.0,0.8888888888888888,1.6192,0.5508861111111112,0.005550000000000001,0.0333,0,0,0.0,0,0,-2.2222222222256782e-05,4.999999999999883e-05,-0.26087187499999986,-0.8888888888888888,-1.2999999999929734e-05
DK_16,DoorKnocking,LowGain,1,DoorKnocking_Default,30,5,28,23,29.15,0.006,0.017,0.0612,2.3454,1.0,0.0296,1.4794,1.0,0.4787,0.6984,0.9688,0.017,2.3139,0.0,18760,0,445,18760,18759,,0.478654,0.698413,18760,0,0.0,1.0,0.2475,5.78,6,0.115411,0.0,0.0,18760,18760,18760,18760,1.0,18760,0,4644,0.4786532164179105,0.698413,0.480146,0.4786532164179105,0.698413,0.480146,247.54797441364607,32.0,0.96875,31.0,0.0,0.0,2.6444107142857143,10.0611,28.0,28.0,0.875,1.4492,0.5930375,0.01695625,0.3094,0,0,0.0,0,0,4.999999999999449e-05,4.375000000000212e-05,-0.33051071428571444,-0.875,-1.2999999999929734e-05
DK_17,DoorKnocking,LowGain,2,DoorKnocking_Default,30,5,28,23,30.04,0.0,0.0083,0.0668,6.2317,1.0,0.0457,17.1327,1.0,0.4754,0.6984,1.0,0.0083,2.3623,0.0,19320,0,461,19320,19319,,0.475432,0.698413,19320,0,0.0,1.0,0.2506,5.74,6,0.178874,0.0,0.0,19320,19320,19320,19320,1.0,19320,0,4841,0.4754313405797102,0.698413,0.480146,0.4754313405797102,0.698413,0.480146,250.56935817805382,32.0,1.0,32.0,0.0,0.0,2.699817857142857,10.8305,28.0,28.0,0.875,1.4492,0.573771875,0.008325,0.0333,0,0,0.0,0,0,0.0,-2.5000000000000716e-05,-0.3375178571428572,-0.875,-1.2999999999929734e-05
DK_18,DoorKnocking,LowGain,3,DoorKnocking_Default,30,5,28,23,30.04,0.0,0.0081,0.0599,6.6596,1.0,0.046,17.4755,1.0,0.4759,0.6984,1.0,0.0081,2.3009,0.0,19320,0,452,19320,19319,,0.475901,0.698413,19320,0,0.0,1.0,0.2444,5.77,6,0.184612,0.0,0.0,19320,19320,19320,19320,1.0,19320,0,4721,0.4759006956521739,0.698413,0.480146,0.4759006956521739,0.698413,0.480146,244.35817805383022,33.0,1.0,33.0,0.0,0.0,2.6183172413793105,10.8312,29.0,29.0,0.8787878787878788,1.4492,0.5665272727272727,0.008072727272727273,0.0333,0,0,0.0,0,0,0.0,2.7272727272726477e-05,-0.3174172413793106,-0.8787878787878788,-1.2999999999929734e-05
DK_19,DoorKnocking,LowGain,4,DoorKnocking_Default,30,5,28,23,30.04,0.0,0.0091,0.0681,6.2484,1.0,0.0457,17.1474,1.0,0.4753,0.6984,0.9697,0.0091,2.2899,0.0,19320,0,465,19320,19319,,0.475317,0.698413,19320,0,0.0,1.0,0.2531,5.72,6,0.177079,0.0,0.0,19320,19320,19320,19320,1.0,19320,0,4889,0.4753162884057971,0.698413,0.480146,0.4753162884057971,0.698413,0.480146,253.05383022774325,33.0,0.9696969696969697,32.0,0.0,0.0,2.6057275862068967,10.8325,29.0,29.0,0.8787878787878788,1.4492,0.5580121212121212,0.009084848484848486,0.0334,0,0,0.0,0,0,3.0303030302825107e-06,1.5151515151514902e-05,-0.3158275862068969,-0.8787878787878788,-1.2999999999929734e-05
DK_20,DoorKnocking,LowGain,5,DoorKnocking_Default,30,5,28,23,30.04,0.0,0.0073,0.071,5.4949,1.0,0.0449,16.473,1.0,0.4756,0.6984,1.0,0.0073,2.3623,0.0,19320,0,451,19320,19319,,0.475593,0.698413,19320,0,0.0,1.0,0.2476,5.79,6,0.177499,0.0,0.0,19320,19320,19320,19320,1.0,19320,0,4783,0.4755925695652174,0.698413,0.480146,0.4755925695652174,0.698413,0.480146,247.5672877846791,32.0,1.0,32.0,0.0,0.0,2.6997464285714288,10.83,28.0,28.0,0.875,1.7296,0.575659375,0.007296875,0.0337,0,0,0.0,0,0,0.0,3.124999999999656e-06,-0.3374464285714289,-0.875,-1.2999999999929734e-05
DK_21,DoorKnocking,NoCollisionMasking,1,DoorKnocking_Default,30,5,28,23,30.04,0.0,0.0094,0.0724,7.3521,1.0,0.097,24.9308,1.0,0.4768,0.6984,0.8718,0.0094,1.9782,0.0,19320,0,550,19320,19319,,0.476845,0.698413,19320,0,0.0,1.0,0.2931,5.89,6,0.329066,0.0,0.0,19320,19320,19320,19320,1.0,19320,0,5663,0.47684543768115945,0.698413,0.480393,0.47684543768115945,0.698413,0.480393,293.1159420289855,39.0,0.8717948717948718,34.0,1.0,0.02564102564102564,2.20428,10.6696,35.0,35.0,0.8974358974358975,1.4492,0.5489153846153846,0.009394871794871796,0.0334,0,0,0.0,0,0,5.128205128213104e-06,5.12820512820443e-06,-0.22607999999999984,-0.8974358974358975,-1.2999999999929734e-05
DK_22,DoorKnocking,NoCollisionMasking,2,DoorKnocking_Default,30,5,28,23,30.04,0.0,0.0106,0.0623,9.2488,1.0,0.0974,27.8163,1.0,0.4733,0.6984,0.9714,0.0106,2.2334,0.0,19320,0,530,19320,19319,,0.473263,0.698413,19320,0,0.0,1.0,0.2833,5.92,6,0.341721,0.0,0.0,19320,19320,19320,19320,1.0,19320,0,5474,0.473262720289855,0.698413,0.478718,0.473262720289855,0.698413,0.478718,283.3333333333333,35.0,0.9714285714285714,34.0,1.0,0.02857142857142857,2.521561290322581,10.9335,31.0,31.0,0.8857142857142857,1.5642,0.5806828571428571,0.010634285714285716,0.1057,0,0,0.0,0,0,-2.8571428571377844e-05,-3.428571428571586e-05,-0.28816129032258075,-0.8857142857142857,-1.2999999999929734e-05
DK_23,DoorKnocking,NoCollisionMasking,3,DoorKnocking_Default,30,5,28,23,30.04,0.0,0.0143,0.0792,9.0523,1.0,0.1034,27.6605,1.0,0.4769,0.6984,1.0,0.0143,2.3451,0.0,19320,0,555,19320,19319,,0.476939,0.698413,19320,0,0.0,1.0,0.2947,5.93,6,0.348937,0.0,0.0,19320,19320,19320,19320,1.0,19320,0,5694,0.4769392057971014,0.698413,0.480265,0.4769392057971014,0.698413,0.480265,294.72049689440996,34.0,1.0,34.0,0.0,0.0,2.657826666666667,10.7988,30.0,30.0,0.8823529411764706,1.7154,0.6358823529411765,0.014302941176470588,0.1866,0,0,0.0,0,0,0.0,-2.941176470587503e-06,-0.3127266666666668,-0.8823529411764706,-1.2999999999929734e-05
DK_24,DoorKnocking,NoCollisionMasking,4,DoorKnocking_Default,30,5,28,23,30.04,0.0,0.0123,0.0736,8.5123,1.0,0.0977,24.9445,1.0,0.4842,0.9256,1.0,0.0123,2.3135,0.0,19320,0,820,19320,19319,,0.484213,0.925624,19320,0,0.0,1.0,0.3098,4.94,6,0.313458,0.0,0.0,19320,19320,19320,19320,1.0,19320,0,5986,0.48421353333333333,0.925624,0.48023,0.48421353333333333,0.925624,0.48023,309.8343685300207,34.0,1.0,34.0,0.0,0.0,2.621976666666667,10.8626,30.0,30.0,0.8823529411764706,1.6086,0.6034441176470589,0.012314705882352941,0.1856,0,0,0.0,0,0,0.0,-1.4705882352940985e-05,-0.30847666666666695,-0.8823529411764706,-2.4000000000024002e-05
DK_25,DoorKnocking,NoCollisionMasking,5,DoorKnocking_Default,30,5,28,23,30.04,0.0,0.0103,0.0735,7.6015,1.0,0.0992,25.3271,1.0,0.4888,0.6984,0.8974,0.0103,1.9859,0.0,19320,0,911,19320,19319,,0.488758,0.698413,19320,0,0.0,1.0,0.3214,4.79,6,0.306996,0.0,0.0,19320,19320,19320,19320,1.0,19320,0,6209,0.4887579550724637,0.698413,0.507217,0.4887579550724637,0.698413,0.507217,321.3768115942029,39.0,0.8974358974358975,35.0,0.0,0.0,2.2129028571428573,10.6383,35.0,35.0,0.8974358974358975,1.7324,0.5560948717948718,0.010246153846153848,0.0333,0,0,0.0,0,0,-3.5897435897491725e-05,5.3846153846152586e-05,-0.22700285714285728,-0.8974358974358975,-1.2999999999929734e-05
DK_26,DoorKnocking,NoAudioFeedback,1,DoorKnocking_Default,30,5,28,23,30.04,0.0,0.0046,0.0673,7.2065,1.0,0.0947,24.7003,1.0,0.4774,0.6984,0.9444,0.0046,2.1135,0.0,19320,0,544,19320,19319,,0.477415,0.698413,19320,0,0.0,1.0,0.2876,5.82,6,0.327015,0.0,0.0,19320,19320,19320,19320,1.0,19320,0,5557,0.47741535362318843,0.698413,0.480182,0.47741535362318843,0.698413,0.480182,287.6293995859213,36.0,0.9444444444444444,34.0,0.0,0.0,2.377684375,10.8281,32.0,32.0,0.8888888888888888,1.5299,0.5563055555555556,0.004625000000000001,0.0333,0,0,0.0,0,0,-4.444444444440254e-05,-2.5000000000000716e-05,-0.2641843749999997,-0.8888888888888888,-1.2999999999929734e-05
DK_27,DoorKnocking,NoAudioFeedback,2,DoorKnocking_Default,30,5,28,23,29.89,0.0015,0.0046,0.0739,6.2118,1.0,0.0967,22.8478,1.0,0.4779,0.6984,0.9722,0.0046,2.1067,0.0,19208,0,554,19208,19207,,0.477856,0.698413,19208,0,0.0,1.0,0.2931,5.85,6,0.327845,0.0,0.0,19208,19208,19208,19208,1.0,19208,0,5630,0.47785604518950436,0.698413,0.480182,0.47785604518950436,0.698413,0.480182,293.1070387338609,36.0,0.9722222222222222,35.0,0.0,0.0,2.37006875,10.6057,32.0,32.0,0.8888888888888888,1.7478,0.5639361111111111,0.004625000000000001,0.0333,0,0,0.0,0,0,-2.2222222222256782e-05,-2.5000000000000716e-05,-0.26336875000000015,-0.8888888888888888,-1.2999999999929734e-05
DK_28,DoorKnocking,NoAudioFeedback,3,DoorKnocking_Default,30,5,28,23,29.96,0.0015,0.0063,0.0777,8.3121,1.0,0.0988,24.1601,1.0,0.478,0.6984,0.973,0.0063,2.0696,0.0,19264,0,558,19264,19263,,0.477975,0.698413,19264,0,0.0,1.0,0.297,5.89,6,0.330763,0.0,0.0,19264,19264,19264,19264,1.0,19264,0,5721,0.47797567151162784,0.698413,0.480182,0.47797567151162784,0.698413,0.480182,296.9788205980066,37.0,0.972972972972973,36.0,1.0,0.02702702702702703,2.3204969696969697,10.8709,33.0,33.0,0.8918918918918919,1.741,0.5514486486486486,0.006300000000000001,0.0333,0,0,0.0,0,0,2.7027027026949035e-05,-8.673617379884035e-19,-0.25089696969696984,-0.8918918918918919,-1.2999999999929734e-05
DK_29,DoorKnocking,NoAudioFeedback,4,DoorKnocking_Default,30,5,28,23,30.04,0.0,0.0049,0.0673,9.2576,1.0,0.0986,27.9955,1.0,0.4768,0.6984,1.0,0.0049,2.3206,0.0,19320,0,540,19320,19319,,0.476833,0.698413,19320,0,0.0,1.0,0.2869,5.89,6,0.341622,0.0,0.0,19320,19320,19320,19320,1.0,19320,0,5543,0.47683339420289855,0.698413,0.480182,0.47683339420289855,0.698413,0.480182,286.90476190476187,34.0,1.0,34.0,0.0,0.0,2.6299966666666665,10.843,30.0,30.0,0.8823529411764706,1.5448,0.5721470588235293,0.004897058823529412,0.0333,0,0,0.0,0,0,0.0,2.941176470587503e-06,-0.3093966666666663,-0.8823529411764706,-1.2999999999929734e-05
DK_30,DoorKnocking,NoAudioFeedback,5,DoorKnocking_Default,30,5,28,23,29.86,0.0029,0.0081,0.0662,7.3094,1.0,0.0952,24.8631,1.0,0.4781,0.6984,0.9459,0.0081,2.0618,0.0,19208,0,541,19208,19207,,0.478065,0.698413,19208,0,0.0,1.0,0.2896,5.86,6,0.326552,0.0,0.0,19208,19208,19208,19208,1.0,19208,0,5562,0.47806493440233233,0.698413,0.480182,0.47806493440233233,0.698413,0.480182,289.5668471470221,37.0,0.9459459459459459,35.0,0.0,0.0,2.311742424242424,10.6691,33.0,33.0,0.8918918918918919,1.6399,0.549345945945946,0.008102702702702703,0.0334,0,0,0.0,0,0,-4.5945945945979894e-05,-2.702702702703577e-06,-0.2499424242424242,-0.8918918918918919,-1.2999999999929734e-05
TC_01,TwoCharacter,Direct,1,TwoCharacter_Default,30,5,28,23,30.04,0.0,0.0,0.0,0.0,1.0,0.0056,1.2456,0.0,0.0,0.0,0.0,0.0,0.0,0.0,0,0,1,0,0,,-1.0,-1.0,0,0,0.0,0.0,0.0435,30.0,30,0.097699,0.0,0.0,10350,0,0,0,0.0,0,0,450,-1.0,-1.0,-1.0,0.0,0.0,0.0,43.47826086956522,,,,,,,,,,,,,,,0,0,0.0,0,0,,,,,1.0
TC_02,TwoCharacter,Direct,2,TwoCharacter_Default,30,5,28,23,30.04,0.0,0.0,0.0,0.0,1.0,0.0056,1.2456,0.0,0.0,0.0,0.0,0.0,0.0,0.0,0,0,1,0,0,,-1.0,-1.0,0,0,0.0,0.0,0.0433,30.0,30,0.097852,0.0,0.0,10335,0,0,0,0.0,0,0,447,-1.0,-1.0,-1.0,0.0,0.0,0.0,43.2510885341074,,,,,,,,,,,,,,,0,0,0.0,0,0,,,,,1.0
TC_03,TwoCharacter,Direct,3,TwoCharacter_Default,30,5,28,23,30.04,0.0,0.0,0.0,0.0,1.0,0.0056,1.2456,0.0,0.0,0.0,0.0,0.0,0.0,0.0,0,0,1,0,0,,-1.0,-1.0,0,0,0.0,0.0,0.0435,30.0,30,0.097699,0.0,0.0,10350,0,0,0,0.0,0,0,450,-1.0,-1.0,-1.0,0.0,0.0,0.0,43.47826086956522,,,,,,,,,,,,,,,0,0,0.0,0,0,,,,,1.0
TC_04,TwoCharacter,Direct,4,TwoCharacter_Default,30,5,28,23,30.04,0.0,0.0,0.0,0.0,1.0,0.0056,1.2456,0.0,0.0,0.0,0.0,0.0,0.0,0.0,0,0,1,0,0,,-1.0,-1.0,0,0,0.0,0.0,0.0435,30.0,30,0.097699,0.0,0.0,10350,0,0,0,0.0,0,0,450,-1.0,-1.0,-1.0,0.0,0.0,0.0,43.47826086956522,,,,,,,,,,,,,,,0,0,0.0,0,0,,,,,1.0
TC_05,TwoCharacter,Direct,5,TwoCharacter_Default,30,5,28,23,30.04,0.0,0.0,0.0,0.0,1.0,0.0056,1.2456,0.0,0.0,0.0,0.0,0.0,0.0,0.0,0,0,1,0,0,,-1.0,-1.0,0,0,0.0,0.0,0.0435,30.0,30,0.097699,0.0,0.0,10350,0,0,0,0.0,0,0,450,-1.0,-1.0,-1.0,0.0,0.0,0.0,43.47826086956522,,,,,,,,,,,,,,,0,0,0.0,0,0,,,,,1.0
TC_06,TwoCharacter,PlanarIK,1,TwoCharacter_Default,30,5,28,23,30.04,0.0,0.0,0.0,0.0,1.0,0.0056,1.2456,1.0,0.2967,1.3367,0.0,0.0,1.0409,0.0,10350,0,1,0,0,,0.296711,1.336699,10350,10350,1.0,1.0,0.0435,30.0,30,0.097699,0.0,0.0,10350,10350,10350,10350,1.0,0,10350,450,0.29671048260869565,1.336699,0.647119,0.29671048260869565,1.336699,0.647119,43.47826086956522,58.0,0.0,0.0,52.0,0.896551724137931,1.118035185185185,10.0006,54.0,54.0,0.9310344827586207,1.4492,0.4594051724137931,0.0,0.0,0,0,0.0,0,0,0.0,0.0,-0.07713518518518514,-0.9310344827586207,9.999999999177334e-07
TC_07,TwoCharacter,PlanarIK,2,TwoCharacter_Default,30,5,28,23,30.04,0.0,0.0,0.0,0.0,1.0,0.0056,1.2456,1.0,0.2968,1.3368,0.0,0.0,1.0409,0.0,10350,0,1,0,0,,0.296761,1.336825,10350,10350,1.0,1.0,0.0435,30.0,30,0.097699,0.0,0.0,10350,10350,10350,10350,1.0,0,10350,450,0.29676129855072464,1.336825,0.64711,0.29676129855072464,1.336825,0.64711,43.47826086956522,58.0,0.0,0.0,52.0,0.896551724137931,1.1180444444444444,10.0011,54.0,54.0,0.9310344827586207,1.4492,0.462548275862069,0.0,0.0,0,0,0.0,0,0,0.0,0.0,-0.07714444444444446,-0.9310344827586207,-2.4999999999941735e-05
TC_08,TwoCharacter,PlanarIK,3,TwoCharacter_Default,30,5,28,23,30.04,0.0,0.0,0.0,0.0,1.0,0.0056,1.2456,1.0,0.2967,1.3367,0.0,0.0,1.0403,0.0,10350,0,1,0,0,,0.296651,1.336748,10350,10350,1.0,1.0,0.0435,30.0,30,0.097699,0.0,0.0,10350,10350,10350,10350,1.0,0,10350,450,0.2966509724637681,1.336748,0.647118,0.2966509724637681,1.336748,0.647118,43.47826086956522,58.0,0.0,0.0,52.0,0.896551724137931,1.1174055555555555,10.0004,54.0,54.0,0.9310344827586207,1.4492,0.4714724137931034,0.0,0.0,0,0,0.0,0,0,0.0,0.0,-0.07710555555555554,-0.9310344827586207,-4.8000000000048004e-05
TC_09,TwoCharacter,PlanarIK,4,TwoCharacter_Default,30,5,28,23,30.04,0.0,0.0,0.0,0.0,1.0,0.0056,1.2456,1.0,0.297,1.3367,0.0,0.0,1.0587,0.0,10335,0,1,0,0,,0.297003,1.336675,10335,10335,1.0,1.0,0.0433,30.0,30,0.097852,0.0,0.0,10335,10335,10335,10335,1.0,0,10335,447,0.2970030957910014,1.336675,0.647805,0.2970030957910014,1.336675,0.647805,43.2510885341074,57.0,0.0,0.0,51.0,0.8947368421052632,1.138545283018868,10.0016,53.0,53.0,0.9298245614035088,1.4492,0.4555719298245614,0.0,0.0,0,0,0.0,0,0,0.0,0.0,-0.07984528301886806,-0.9298245614035088,2.4999999999941735e-05
TC_10,TwoCharacter,PlanarIK,5,TwoCharacter_Default,30,5,28,23,30.04,0.0,0.0,0.0,0.0,1.0,0.0056,1.2456,1.0,0.2966,1.3368,0.0,0.0,1.0404,0.0,10350,0,1,0,0,,0.296625,1.336817,10350,10350,1.0,1.0,0.0435,30.0,30,0.097699,0.0,0.0,10350,10350,10350,10350,1.0,0,10350,450,0.2966246188405797,1.336817,0.64711,0.2966246188405797,1.336817,0.64711,43.47826086956522,58.0,0.0,0.0,52.0,0.896551724137931,1.1174574074074075,10.0023,54.0,54.0,0.9310344827586207,1.4492,0.4594068965517242,0.0,0.0,0,0,0.0,0,0,0.0,0.0,-0.07705740740740752,-0.9310344827586207,-1.6999999999933735e-05
TC_11,TwoCharacter,Ours,1,TwoCharacter_Default,30,5,28,23,29.96,0.0015,0.0049,0.0702,3.6531,1.0,0.0804,7.5175,1.0,0.3959,1.1951,0.9344,0.0049,0.9452,0.0,19264,0,1306,19264,19263,,0.395868,1.195078,19264,0,0.0,1.0,0.4933,5.06,7,0.159616,0.0,0.0,19264,19264,19264,19264,1.0,19264,0,9503,0.3958683168604651,1.195078,0.698295,0.3958683168604651,1.195078,0.698295,493.30357142857144,61.0,0.9344262295081968,57.0,0.0,0.0,1.0115368421052633,10.0301,57.0,57.0,0.9344262295081968,1.4492,0.5251459016393443,0.004913114754098361,0.0333,0,0,0.0,0,0,-2.6229508196751183e-05,-1.3114754098360847e-05,-0.06633684210526325,-0.9344262295081968,2.199999999996649e-05
TC_12,TwoCharacter,Ours,2,TwoCharacter_Default,30,5,28,23,30.04,0.0,0.0059,0.069,3.6335,1.0,0.0799,8.9813,1.0,0.4068,1.3007,0.9474,0.0059,0.9996,0.0,19292,0,1285,19292,19291,,0.406782,1.300739,19292,0,0.0,1.0,0.4846,5.06,7,0.161357,0.0,0.0,19292,19292,19292,19292,1.0,19292,0,9349,0.4067817184325109,1.300739,0.712256,0.4067817184325109,1.300739,0.712256,484.60501762388554,57.0,0.9473684210526315,54.0,0.0,0.0,1.0750358490566039,10.0028,53.0,53.0,0.9298245614035088,1.4492,0.5261403508771929,0.00584561403508772,0.0334,0,0,0.0,0,0,3.157894736849354e-05,5.438596491227996e-05,-0.07543584905660383,-0.9298245614035088,-3.900000000012227e-05
TC_13,TwoCharacter,Ours,3,TwoCharacter_Default,30,5,28,23,30.04,0.0,0.0071,0.0657,1.9692,1.0,0.0771,7.3288,1.0,0.3983,1.2871,0.918,0.0071,0.9416,0.0,19320,0,1259,19320,19319,,0.398284,1.287141,19320,0,0.0,1.0,0.4816,5.07,7,0.156567,0.0,0.0,19320,19320,19320,19320,1.0,19320,0,9304,0.39828443333333335,1.287141,0.690502,0.39828443333333335,1.287141,0.690502,481.5734989648033,61.0,0.9180327868852459,56.0,2.0,0.03278688524590164,1.0076771929824562,10.0014,57.0,57.0,0.9344262295081968,1.4492,0.5103639344262295,0.007096721311475411,0.0333,0,0,0.0,0,0,-3.278688524588347e-05,3.278688524589561e-06,-0.06607719298245618,-0.9344262295081968,-4.100000000017978e-05
TC_14,TwoCharacter,Ours,4,TwoCharacter_Default,30,5,28,23,30.04,0.0,0.0081,0.0677,2.9652,1.0,0.0784,8.7048,1.0,0.3835,1.1714,0.9655,0.0081,0.9938,0.0,19320,0,1249,19320,19319,,0.383512,1.17139,19320,0,0.0,1.0,0.4781,5.09,7,0.160261,0.0,0.0,19320,19320,19320,19320,1.0,19320,0,9237,0.38351257246376813,1.17139,0.655336,0.38351257246376813,1.17139,0.655336,478.1055900621118,58.0,0.9655172413793104,56.0,0.0,0.0,1.0674203703703702,10.0003,54.0,54.0,0.9310344827586207,1.4492,0.4965948275862069,0.008124137931034482,0.1049,0,0,0.0,0,0,-1.724137931036207e-05,-2.4137931034482613e-05,-0.07362037037037017,-0.9310344827586207,1.0000000000065512e-05
TC_15,TwoCharacter,Ours,5,TwoCharacter_Default,30,5,28,23,30.04,0.0,0.0056,0.0664,2.0913,1.0,0.0774,7.5129,1.0,0.3948,1.2634,0.9492,0.0056,0.9724,0.0,19320,0,1259,19320,19319,,0.394843,1.2634,19320,0,0.0,1.0,0.481,5.08,7,0.157451,0.0,0.0,19320,19320,19320,19320,1.0,19320,0,9292,0.3948427884057971,1.2634,0.698338,0.3948427884057971,1.2634,0.698338,480.95238095238096,59.0,0.9491525423728814,56.0,0.0,0.0,1.0430618181818183,10.0003,55.0,55.0,0.9322033898305084,1.4492,0.5075101694915255,0.00564406779661017,0.0333,0,0,0.0,0,0,4.7457627118663304e-05,-4.4067796610170254e-05,-0.07066181818181827,-0.9322033898305084,0.0
TC_16,TwoCharacter,LowGain,1,TwoCharacter_Default,30,5,28,23,30.04,0.0,0.0093,0.0848,3.4882,1.0,0.0362,5.8384,1.0,0.405,1.2018,0.9259,0.0093,1.0464,0.0,19320,0,765,19320,19319,,0.405046,1.201771,19320,0,0.0,1.0,0.3606,4.77,7,0.093267,0.0,0.0,19320,19320,19320,19320,1.0,19320,0,6966,0.4050461202898551,1.201771,0.78949,0.4050461202898551,1.201771,0.78949,360.55900621118013,54.0,0.9259259259259259,50.0,0.0,0.0,1.130126,10.0017,50.0,50.0,0.9259259259259259,1.4492,0.49434629629629634,0.009250000000000001,0.0333,0,0,0.0,0,0,-2.592592592598475e-05,4.999999999999796e-05,-0.08372599999999997,-0.9259259259259259,2.9000000000056758e-05
TC_17,TwoCharacter,LowGain,2,TwoCharacter_Default,30,5,28,23,30.04,0.0,0.0101,0.0754,2.7465,1.0,0.0352,5.5571,1.0,0.3752,1.231,0.9434,0.0101,1.0637,0.0,19320,0,710,19320,19319,,0.37517,1.231049,19320,0,0.0,1.0,0.3459,4.71,7,0.094067,0.0,0.0,19320,19320,19320,19320,1.0,19320,0,6683,0.3751695956521739,1.231049,0.66834,0.3751695956521739,1.231049,0.66834,345.9109730848861,53.0,0.9433962264150944,50.0,0.0,0.0,1.150569387755102,10.0023,49.0,49.0,0.9245283018867925,1.4492,0.5298396226415094,0.010064150943396228,0.0338,0,0,0.0,0,0,3.7735849056641513e-06,3.584905660377127e-05,-0.08686938775510189,-0.9245283018867925,-4.899999999996574e-05
TC_18,TwoCharacter,LowGain,3,TwoCharacter_Default,30,5,28,23,29.89,0.0015,0.009,0.0748,3.6734,1.0,0.037,5.4756,1.0,0.4019,1.2265,0.9423,0.009,1.0904,0.0,19236,0,708,19236,19235,,0.401887,1.226506,19236,0,0.0,1.0,0.3481,4.69,7,0.098687,0.0,0.0,19236,19236,19236,19236,1.0,19236,0,6696,0.40188726055312957,1.226506,0.786158,0.40188726055312957,1.226506,0.786158,348.097317529632,52.0,0.9423076923076923,49.0,0.0,0.0,1.1812375,10.0046,48.0,48.0,0.9230769230769231,1.4492,0.5245634615384616,0.008965384615384616,0.0333,0,0,0.0,0,0,-7.692307692264144e-06,3.461538461538294e-05,-0.0908374999999999,-0.9230769230769231,-6.000000000172534e-06
TC_19,TwoCharacter,LowGain,4,TwoCharacter_Default,30,5,28,23,30.04,0.0,0.0105,0.0843,3.0933,1.0,0.036,5.7171,1.0,0.3822,1.203,0.9412,0.0105,1.0949,0.0,19320,0,742,19320,19319,,0.382239,1.202994,19320,0,0.0,1.0,0.3575,4.74,7,0.093246,0.0,0.0,19320,19320,19320,19320,1.0,19320,0,6906,0.3822386956521739,1.202994,0.698344,0.3822386956521739,1.202994,0.698344,357.45341614906835,51.0,0.9411764705882353,48.0,0.0,0.0,1.188036170212766,10.0003,47.0,47.0,0.9215686274509803,1.4492,0.5496803921568627,0.010447058823529413,0.0333,0,0,0.0,0,0,2.3529411764755537e-05,5.29411764705872e-05,-0.09313617021276599,-0.9215686274509803,6.000000000172534e-06
TC_20,TwoCharacter,LowGain,5,TwoCharacter_Default,30,5,28,23,29.92,0.0015,0.0115,0.0743,2.9491,1.0,0.0358,5.6495,1.0,0.3831,1.214,0.9423,0.0115,1.0874,0.0,19264,0,696,19264,19263,,0.383113,1.213963,19264,0,0.0,1.0,0.3406,4.71,7,0.097063,0.0,0.0,19264,19264,19264,19264,1.0,19264,0,6562,0.38311324709302325,1.213963,0.721186,0.38311324709302325,1.213963,0.721186,340.63538205980063,52.0,0.9423076923076923,49.0,0.0,0.0,1.177975,10.0247,48.0,48.0,0.9230769230769231,1.4492,0.4922384615384615,0.011526923076923077,0.0333,0,0,0.0,0,0,-7.692307692264144e-06,-2.692307692307716e-05,-0.09057500000000007,-0.9230769230769231,3.700000000006476e-05
TC_21,TwoCharacter,NoCollisionMasking,1,TwoCharacter_Default,30,5,28,23,30.04,0.0,0.0063,0.0774,3.6513,1.0,0.0824,7.6864,1.0,0.3878,1.2376,0.9138,0.0063,0.9696,0.0,19320,0,1353,19320,19319,,0.38784,1.237626,19320,0,0.0,1.0,0.5068,5.05,7,0.159393,0.0,0.0,19320,19320,19320,19320,1.0,19320,0,9791,0.38784038260869563,1.237626,0.672482,0.38784038260869563,1.237626,0.672482,506.7805383022774,58.0,0.9137931034482759,53.0,0.0,0.0,1.0414055555555555,10.0005,54.0,54.0,0.9310344827586207,1.4492,0.5417396551724137,0.00631551724137931,0.0333,0,0,0.0,0,0,6.896551724033806e-06,-1.551724137931025e-05,-0.07180555555555546,-0.9310344827586207,-2.599999999985947e-05
TC_22,TwoCharacter,NoCollisionMasking,2,TwoCharacter_Default,30,5,28,23,30.04,0.0,0.0073,0.0646,2.935,1.0,0.0783,8.6635,1.0,0.3837,1.2281,0.9153,0.0073,0.952,0.0,19320,0,1240,19320,19319,,0.383659,1.22807,19320,0,0.0,1.0,0.4736,5.06,7,0.16165,0.0,0.0,19320,19320,19320,19320,1.0,19320,0,9149,0.38365863478260864,1.22807,0.690434,0.38365863478260864,1.22807,0.690434,473.5507246376812,59.0,0.9152542372881356,54.0,0.0,0.0,1.0212454545454546,10.0004,55.0,55.0,0.9322033898305084,1.4492,0.49554745762711866,0.0073372881355932215,0.0333,0,0,0.0,0,0,4.57627118644055e-05,-3.728813559322145e-05,-0.06924545454545461,-0.9322033898305084,2.999999999997449e-05
TC_23,TwoCharacter,NoCollisionMasking,3,TwoCharacter_Default,30,5,28,23,30.04,0.0,0.0063,0.07,2.897,1.0,0.0801,8.6117,1.0,0.3851,1.219,0.8594,0.0063,0.8772,0.0,19320,0,1282,19320,19319,,0.385067,1.218953,19320,0,0.0,1.0,0.4908,5.09,7,0.159851,0.0,0.0,19320,19320,19320,19320,1.0,19320,0,9483,0.3850666333333333,1.218953,0.697008,0.3850666333333333,1.218953,0.697008,490.8385093167702,64.0,0.859375,55.0,0.0,0.0,0.9357183333333333,10.0025,60.0,60.0,0.9375,1.4492,0.47409375,0.006243750000000001,0.0333,0,0,0.0,0,0,2.5000000000052758e-05,5.624999999999901e-05,-0.05851833333333334,-0.9375,4.700000000013027e-05
TC_24,TwoCharacter,NoCollisionMasking,4,TwoCharacter_Default,30,5,28,23,30.04,0.0,0.0064,0.0676,3.6527,1.0,0.0798,7.5667,1.0,0.3947,1.2894,0.9474,0.0064,0.9815,0.0,19320,0,1278,19320,19319,,0.394677,1.28939,19320,0,0.0,1.0,0.4876,5.07,7,0.160217,0.0,0.0,19320,19320,19320,19320,1.0,19320,0,9421,0.3946774724637681,1.28939,0.698305,0.3946774724637681,1.28939,0.698305,487.6293995859213,57.0,0.9473684210526315,54.0,1.0,0.017543859649122806,1.0555547169811321,10.0027,53.0,53.0,0.9298245614035088,1.4492,0.5009877192982456,0.006428070175438598,0.0334,0,0,0.0,0,0,3.157894736849354e-05,-2.8070175438597508e-05,-0.07405471698113208,-0.9298245614035088,1.0000000000065512e-05
TC_25,TwoCharacter,NoCollisionMasking,5,TwoCharacter_Default,30,5,28,23,30.04,0.0,0.0074,0.0809,3.4639,1.0,0.0898,9.3899,1.0,0.3907,1.2225,0.9206,0.0074,1.0504,0.0,19320,0,1366,19320,19319,,0.390741,1.222466,19320,0,0.0,1.0,0.5169,5.08,7,0.170828,0.0,0.0,19320,19320,19320,19320,1.0,19320,0,9987,0.39074063043478263,1.222466,0.668823,0.39074063043478263,1.222466,0.668823,516.9254658385092,63.0,0.9206349206349206,58.0,0.0,0.0,1.0847950819672132,10.0007,61.0,61.0,0.9682539682539683,1.4492,0.47646349206349203,0.007400000000000001,0.0333,0,0,0.0,0,0,-3.492063492060993e-05,-8.673617379884035e-19,-0.03439508196721319,-0.9682539682539683,3.399999999986747e-05
TC_26,TwoCharacter,NoAudioFeedback,1,TwoCharacter_Default,30,5,28,23,30.04,0.0,0.0094,0.0627,2.4867,1.0,0.0787,8.1146,1.0,0.3873,1.1774,0.9825,0.0094,0.9948,0.0,19320,0,1308,19320,19319,,0.387287,1.177408,19320,0,0.0,1.0,0.4955,5.06,7,0.155457,0.0,0.0,19320,19320,19320,19320,1.0,19320,0,9573,0.3872871565217391,1.177408,0.668838,0.3872871565217391,1.177408,0.668838,495.4968944099379,57.0,0.9824561403508771,56.0,0.0,0.0,1.0699207547169811,10.0013,53.0,53.0,0.9298245614035088,1.4492,0.5069017543859649,0.009347368421052632,0.0333,0,0,0.0,0,0,4.385964912290152e-05,5.2631578947368376e-05,-0.0751207547169811,-0.9298245614035088,-8.000000000008e-06
TC_27,TwoCharacter,NoAudioFeedback,2,TwoCharacter_Default,30,5,28,23,30.04,0.0,0.0065,0.0692,2.8139,1.0,0.0815,8.4987,1.0,0.391,1.1734,0.9516,0.0065,0.9377,0.0,19292,0,1268,19292,19291,,0.390992,1.173354,19292,0,0.0,1.0,0.4853,5.1,7,0.16446,0.0,0.0,19292,19292,19292,19292,1.0,19292,0,9363,0.39099251088534104,1.173354,0.670872,0.39099251088534104,1.173354,0.670872,485.33070702882026,62.0,0.9516129032258065,59.0,0.0,0.0,1.0024103448275863,10.0011,58.0,58.0,0.9354838709677419,1.4492,0.5151048387096774,0.0064451612903225815,0.0333,0,0,0.0,0,0,-1.2903225806493168e-05,5.4838709677418156e-05,-0.06471034482758631,-0.9354838709677419,4.599999999999049e-05
TC_28,TwoCharacter,NoAudioFeedback,3,TwoCharacter_Default,30,5,28,23,30.04,0.0,0.0063,0.0764,3.2687,1.0,0.0831,9.1206,1.0,0.3841,1.1729,0.9206,0.0063,0.907,0.0,19320,0,1344,19320,19319,,0.384107,1.172866,19320,0,0.0,1.0,0.508,5.06,7,0.160369,0.0,0.0,19320,19320,19320,19320,1.0,19320,0,9815,0.38410725797101447,1.172866,0.659283,0.38410725797101447,1.172866,0.659283,508.0227743271222,63.0,0.9206349206349206,58.0,0.0,0.0,0.9684389830508475,10.0009,59.0,59.0,0.9365079365079365,1.4492,0.48338888888888887,0.006342857142857144,0.0333,0,0,0.0,0,0,-3.492063492060993e-05,-4.285714285714396e-05,-0.061438983050847495,-0.9365079365079365,3.4000000000089514e-05
TC_29,TwoCharacter,NoAudioFeedback,4,TwoCharacter_Default,30,5,28,23,30.04,0.0,0.0062,0.0764,3.4097,1.0,0.0831,9.3149,1.0,0.3889,1.1734,0.9153,0.0062,0.9639,0.0,19292,0,1336,19292,19291,,0.388924,1.173437,19292,0,0.0,1.0,0.5063,5.06,7,0.160948,0.0,0.0,19292,19292,19292,19292,1.0,19292,0,9768,0.3889241785195936,1.173437,0.690586,0.3889241785195936,1.173437,0.690586,506.3238648144308,59.0,0.9152542372881356,54.0,0.0,0.0,1.033978181818182,10.0002,55.0,55.0,0.9322033898305084,1.4492,0.4852728813559322,0.006210169491525425,0.0334,0,0,0.0,0,0,4.57627118644055e-05,-1.0169491525425373e-05,-0.07007818181818193,-0.9322033898305084,-3.700000000006476e-05
TC_30,TwoCharacter,NoAudioFeedback,5,TwoCharacter_Default,30,5,28,23,30.04,0.0,0.0056,0.0633,3.6308,1.0,0.0783,9.1554,1.0,0.4003,1.1676,0.9322,0.0056,0.9729,0.0,19320,0,1232,19320,19319,,0.400322,1.167568,19320,0,0.0,1.0,0.469,5.06,7,0.163035,0.0,0.0,19320,19320,19320,19320,1.0,19320,0,9062,0.4003218333333333,1.167568,0.696932,0.4003218333333333,1.167568,0.696932,469.04761904761904,59.0,0.9322033898305084,55.0,0.0,0.0,1.0437,10.0006,55.0,55.0,0.9322033898305084,1.4492,0.5007796610169492,0.00564406779661017,0.0333,0,0,0.0,0,0,-3.3898305084045788e-06,-4.4067796610170254e-05,-0.07080000000000009,-0.9322033898305084,3.2000000000032e-05
